ENVI
description = {
  Create New File Result [Tue Dec 09 09:10:26 2014]}
samples = 145
lines   = 145
bands   = 220
header offset = 0
file type = ENVI Standard
data type = 12
interleave = bsq
sensor type = Unknown
byte order = 0
wavelength units = Nanometers
wavelength = {
  400.019989,  409.820007,  419.619995,  429.429993,  439.250000,  449.070007,
  458.899994,  468.730011,  478.570007,  488.410004,  498.260010,  508.119995,
  517.979980,  527.849976,  537.719971,  547.599976,  557.489990,  567.380005,
  577.280029,  587.179993,  597.090027,  607.010010,  616.929993,  626.849976,
  636.780029,  646.719971,  656.669983,  666.609985,  676.570007,  686.530029,
  696.500000,  686.909973,  696.549988,  706.190002,  715.830017,  725.469971,
  735.109985,  744.739990,  754.380005,  764.010010,  773.640015,  783.270020,
  792.909973,  802.530029,  812.210022,  821.789978,  831.409973,  841.039978,
  850.659973,  860.280029,  869.909973,  879.530029,  889.140015,  898.760010,
  908.380005,  917.989990,  927.609985,  937.219971,  946.830017,  956.450012,
  966.059998,  975.659973,  985.270020,  994.880005, 1004.479980, 1014.090027,
 1023.690002, 1033.290039, 1042.890015, 1052.489990, 1062.089966, 1071.689941,
 1081.290039, 1090.880005, 1100.479980, 1110.069946, 1119.660034, 1129.250000,
 1138.839966, 1148.430054, 1158.020020, 1167.609985, 1177.189941, 1186.770020,
 1196.359985, 1205.939941, 1215.520020, 1225.099976, 1234.680054, 1244.260010,
 1253.829956, 1263.410034, 1272.979980, 1282.550049, 1273.000000, 1282.959961,
 1292.930054, 1302.890015, 1312.849976, 1322.810059, 1332.770020, 1342.729980,
 1352.680054, 1362.640015, 1372.589966, 1382.540039, 1392.489990, 1402.439941,
 1412.390015, 1422.339966, 1432.280029, 1442.229980, 1452.170044, 1462.109985,
 1472.050049, 1481.989990, 1491.920044, 1501.859985, 1511.790039, 1521.729980,
 1531.660034, 1541.589966, 1551.520020, 1561.439941, 1571.369995, 1581.300049,
 1591.219971, 1601.140015, 1611.060059, 1620.979980, 1630.900024, 1640.810059,
 1650.729980, 1660.640015, 1670.560059, 1680.469971, 1690.380005, 1700.280029,
 1710.189941, 1720.099976, 1730.000000, 1739.900024, 1749.810059, 1759.709961,
 1769.599976, 1779.500000, 1789.400024, 1799.290039, 1809.189941, 1819.079956,
 1828.969971, 1838.859985, 1848.750000, 1858.630005, 1868.520020, 1878.400024,
 1888.280029, 1883.239990, 1893.250000, 1903.260010, 1913.260010, 1923.270020,
 1933.270020, 1943.270020, 1953.260010, 1963.250000, 1973.239990, 1983.229980,
 1993.219971, 2003.199951, 2013.180054, 2023.160034, 2033.130005, 2043.099976,
 2053.070068, 2063.040039, 2073.000000, 2082.969971, 2092.919922, 2102.879883,
 2112.830078, 2122.780029, 2132.729980, 2142.679932, 2152.620117, 2162.560059,
 2172.500000, 2182.429932, 2192.370117, 2202.300049, 2260.219971, 2270.149902,
 2232.070068, 2241.989990, 2251.899902, 2261.820068, 2271.729980, 2281.639893,
 2291.540039, 2301.449951, 2311.350098, 2321.250000, 2331.139893, 2341.030029,
 2350.919922, 2360.810059, 2370.699951, 2380.580078, 2390.459961, 2400.330078,
 2410.209961, 2420.080078, 2429.949951, 2439.810059, 2449.679932, 2459.540039,
 2469.399902, 2479.250000, 2489.110107, 2498.959961}
fwhm = {
  9.780000,  9.820000,  9.850000,  9.890000,  9.920000,  9.940000,  9.970000,
  9.990000, 10.010000, 10.020000, 10.040000, 10.050000, 10.050000, 10.060000,
 10.060000, 10.060000, 10.050000, 10.040000, 10.030000, 10.020000, 10.000000,
  9.980000,  9.960000,  9.940000,  9.910000,  9.880000,  9.840000,  9.810000,
  9.770000,  9.730000,  9.680000,  8.870000,  8.870000,  8.880000,  8.880000,
  8.880000,  8.890000,  8.890000,  8.890000,  8.900000,  8.900000,  8.900000,
  8.910000,  8.910000,  8.910000,  8.920000,  8.920000,  8.920000,  8.930000,
  8.930000,  8.930000,  8.930000,  8.940000,  8.940000,  8.940000,  8.940000,
  8.950000,  8.950000,  8.950000,  8.950000,  8.950000,  8.960000,  8.960000,
  8.960000,  8.960000,  8.960000,  8.970000,  8.970000,  8.970000,  8.970000,
  8.970000,  8.970000,  8.970000,  8.980000,  8.980000,  8.980000,  8.980000,
  8.980000,  8.980000,  8.980000,  8.980000,  8.980000,  8.980000,  8.990000,
  8.990000,  8.990000,  8.990000,  8.990000,  8.990000,  8.990000,  8.990000,
  8.990000,  8.990000,  8.990000,  9.180000,  9.200000,  9.220000,  9.240000,
  9.260000,  9.280000,  9.300000,  9.320000,  9.340000,  9.360000,  9.370000,
  9.390000,  9.410000,  9.430000,  9.440000,  9.460000,  9.470000,  9.490000,
  9.510000,  9.520000,  9.540000,  9.550000,  9.570000,  9.580000,  9.590000,
  9.610000,  9.620000,  9.630000,  9.650000,  9.660000,  9.670000,  9.680000,
  9.700000,  9.710000,  9.720000,  9.730000,  9.740000,  9.750000,  9.760000,
  9.770000,  9.780000,  9.790000,  9.800000,  9.810000,  9.820000,  9.820000,
  9.830000,  9.840000,  9.850000,  9.850000,  9.860000,  9.870000,  9.870000,
  9.880000,  9.890000,  9.890000,  9.900000,  9.900000,  9.910000,  9.910000,
  9.910000,  9.920000,  9.920000, 13.720000, 13.750000, 13.790000, 13.820000,
 13.850000, 13.880000, 13.910000, 13.950000, 13.970000, 14.000000, 14.030000,
 14.060000, 14.090000, 14.110000, 14.140000, 14.160000, 14.190000, 14.210000,
 14.230000, 14.260000, 14.280000, 14.300000, 14.320000, 14.340000, 14.360000,
 14.380000, 14.390000, 14.410000, 14.430000, 14.440000, 14.460000, 14.470000,
 14.490000, 14.500000, 14.510000, 14.520000, 14.530000, 14.540000, 14.550000,
 14.560000, 14.570000, 14.580000, 14.580000, 14.590000, 14.600000, 14.600000,
 14.610000, 14.610000, 14.610000, 14.610000, 14.610000, 14.620000, 14.620000,
 14.620000, 14.610000, 14.610000, 14.610000, 14.610000, 14.600000, 14.600000,
 14.590000, 14.590000, 14.580000}
